key_resp_13.keys,key_resp_13.rt,key_resp.keys,key_resp.rt,key_resp_10.keys,key_resp_10.rt,slider_2.response,slider_2.rt,NVScal.thisRepN,NVScal.thisTrialN,NVScal.thisN,NVScal.thisIndex,NVScal.ran,msg,Echelle,Prolific ID*,Age*,First Name*,Gender (Male/Female/Other)*,date,expName,psychopyVersion,OS,frameRate,participant,id,session,researcher,key_resp_11.keys,key_resp_11.rt,slider_3.response,slider_3.rt,trials_4.thisRepN,trials_4.thisTrialN,trials_4.thisN,trials_4.thisIndex,trials_4.ran,key_resp_2.keys,key_resp_2.rt,slider.response,slider.rt,trials.thisRepN,trials.thisTrialN,trials.thisN,trials.thisIndex,trials.ran,category,EMOTION,key_resp_3.keys,key_resp_3.rt,key_resp_4.keys,key_resp_4.rt,key_resp_5.keys,key_resp_5.corr,key_resp_5.rt,trials_2.thisRepN,trials_2.thisTrialN,trials_2.thisN,trials_2.thisIndex,trials_2.ran,entrainement,repcorr,key_resp_6.keys,key_resp_6.rt,key_resp_7.keys,key_resp_7.corr,key_resp_7.rt,trials_3.thisRepN,trials_3.thisTrialN,trials_3.thisN,trials_3.thisIndex,trials_3.ran,cible,type,key_resp_9.keys,key_resp_9.rt,key_resp_8.keys,key_resp_8.rt
space,31.46758,space,19.9525,space,13.509385,3.004932262,3.213705,0,0,0,0,1,Authoritative,NGS,59dea7f56100f9000194a162,35,,F,2020-10-22_10h40.29.330,Personality Lexical Decision,2020.2.3,Linux armv7l,60,61,,,,,,,,,,,,,,,,,,,,,,,,,,,,,,,,,,,,,,,,,,,,,,,,,,,,,
,,,,,,1.994532691,4.29829,0,1,1,4,1,Powerful,NGS,59dea7f56100f9000194a162,35,,F,2020-10-22_10h40.29.330,Personality Lexical Decision,2020.2.3,Linux armv7l,60,61,,,,,,,,,,,,,,,,,,,,,,,,,,,,,,,,,,,,,,,,,,,,,,,,,,,,,
,,,,,,1.998822283,2.11312,0,2,2,1,1,Dominant,NGS,59dea7f56100f9000194a162,35,,F,2020-10-22_10h40.29.330,Personality Lexical Decision,2020.2.3,Linux armv7l,60,61,,,,,,,,,,,,,,,,,,,,,,,,,,,,,,,,,,,,,,,,,,,,,,,,,,,,,
,,,,,,1.998822283,2.191325,0,3,3,6,1,Superior,NGS,59dea7f56100f9000194a162,35,,F,2020-10-22_10h40.29.330,Personality Lexical Decision,2020.2.3,Linux armv7l,60,61,,,,,,,,,,,,,,,,,,,,,,,,,,,,,,,,,,,,,,,,,,,,,,,,,,,,,
,,,,,,1.998822283,3.29729,0,4,4,14,1,Insecure,NVS,59dea7f56100f9000194a162,35,,F,2020-10-22_10h40.29.330,Personality Lexical Decision,2020.2.3,Linux armv7l,60,61,,,,,,,,,,,,,,,,,,,,,,,,,,,,,,,,,,,,,,,,,,,,,,,,,,,,,
,,,,,,1.998822283,1.259085,0,5,5,10,1,Fragile,NVS,59dea7f56100f9000194a162,35,,F,2020-10-22_10h40.29.330,Personality Lexical Decision,2020.2.3,Linux armv7l,60,61,,,,,,,,,,,,,,,,,,,,,,,,,,,,,,,,,,,,,,,,,,,,,,,,,,,,,
,,,,,,1.021696409,2.33269,0,6,6,2,1,Envied,NGS,59dea7f56100f9000194a162,35,,F,2020-10-22_10h40.29.330,Personality Lexical Decision,2020.2.3,Linux armv7l,60,61,,,,,,,,,,,,,,,,,,,,,,,,,,,,,,,,,,,,,,,,,,,,,,,,,,,,,
,,,,,,1.021696409,1.70873,0,7,7,9,1,Self-absorbed,NVS,59dea7f56100f9000194a162,35,,F,2020-10-22_10h40.29.330,Personality Lexical Decision,2020.2.3,Linux armv7l,60,61,,,,,,,,,,,,,,,,,,,,,,,,,,,,,,,,,,,,,,,,,,,,,,,,,,,,,
,,,,,,2.082946424,2.66287,0,8,8,8,1,Ignored,NVS,59dea7f56100f9000194a162,35,,F,2020-10-22_10h40.29.330,Personality Lexical Decision,2020.2.3,Linux armv7l,60,61,,,,,,,,,,,,,,,,,,,,,,,,,,,,,,,,,,,,,,,,,,,,,,,,,,,,,
,,,,,,1.024635845,2.157815,0,9,9,17,1,Vengeful,NVS,59dea7f56100f9000194a162,35,,F,2020-10-22_10h40.29.330,Personality Lexical Decision,2020.2.3,Linux armv7l,60,61,,,,,,,,,,,,,,,,,,,,,,,,,,,,,,,,,,,,,,,,,,,,,,,,,,,,,
,,,,,,4.025676727,2.32676,0,10,10,11,1,Underappreciated,NVS,59dea7f56100f9000194a162,35,,F,2020-10-22_10h40.29.330,Personality Lexical Decision,2020.2.3,Linux armv7l,60,61,,,,,,,,,,,,,,,,,,,,,,,,,,,,,,,,,,,,,,,,,,,,,,,,,,,,,
,,,,,,3.426916546,2.727825,0,11,11,12,1,Envious,NVS,59dea7f56100f9000194a162,35,,F,2020-10-22_10h40.29.330,Personality Lexical Decision,2020.2.3,Linux armv7l,60,61,,,,,,,,,,,,,,,,,,,,,,,,,,,,,,,,,,,,,,,,,,,,,,,,,,,,,
,,,,,,2.997858825,1.886725,0,12,12,5,1,Prominent,NGS,59dea7f56100f9000194a162,35,,F,2020-10-22_10h40.29.330,Personality Lexical Decision,2020.2.3,Linux armv7l,60,61,,,,,,,,,,,,,,,,,,,,,,,,,,,,,,,,,,,,,,,,,,,,,,,,,,,,,
,,,,,,2.075894532,2.242205,0,13,13,13,1,Resentful,NVS,59dea7f56100f9000194a162,35,,F,2020-10-22_10h40.29.330,Personality Lexical Decision,2020.2.3,Linux armv7l,60,61,,,,,,,,,,,,,,,,,,,,,,,,,,,,,,,,,,,,,,,,,,,,,,,,,,,,,
,,,,,,1.038107731,3.67783,0,14,14,7,1,Ashamed,NVS,59dea7f56100f9000194a162,35,,F,2020-10-22_10h40.29.330,Personality Lexical Decision,2020.2.3,Linux armv7l,60,61,,,,,,,,,,,,,,,,,,,,,,,,,,,,,,,,,,,,,,,,,,,,,,,,,,,,,
,,,,,,3.578585024,2.37409,0,15,15,15,1,Irritable,NVS,59dea7f56100f9000194a162,35,,F,2020-10-22_10h40.29.330,Personality Lexical Decision,2020.2.3,Linux armv7l,60,61,,,,,,,,,,,,,,,,,,,,,,,,,,,,,,,,,,,,,,,,,,,,,,,,,,,,,
,,,,,,1.053602466,2.82588,0,16,16,3,1,High-Status,NGS,59dea7f56100f9000194a162,35,,F,2020-10-22_10h40.29.330,Personality Lexical Decision,2020.2.3,Linux armv7l,60,61,,,,,,,,,,,,,,,,,,,,,,,,,,,,,,,,,,,,,,,,,,,,,,,,,,,,,
,,,,,,2.030731342,4.886085,0,17,17,16,1,Misunderstood,NVS,59dea7f56100f9000194a162,35,,F,2020-10-22_10h40.29.330,Personality Lexical Decision,2020.2.3,Linux armv7l,60,61,,,,,,,,,,,,,,,,,,,,,,,,,,,,,,,,,,,,,,,,,,,,,,,,,,,,,
,,,,,,,,,,,,,"When I feel inadequate in some way, I try to remind myself that feelings of inadequacy are shared by most people.",,59dea7f56100f9000194a162,35,,F,2020-10-22_10h40.29.330,Personality Lexical Decision,2020.2.3,Linux armv7l,60,61,,,,space,8.06854,4.974743737,6.62721,0,0,0,9,1,,,,,,,,,,,,,,,,,,,,,,,,,,,,,,,,,,,,,,,,,
,,,,,,,,,,,,,When I fail at something important to me I become consumed by feelings of inadequacy.,,59dea7f56100f9000194a162,35,,F,2020-10-22_10h40.29.330,Personality Lexical Decision,2020.2.3,Linux armv7l,60,61,,,,,,4.520036768,6.15891,0,1,1,0,1,,,,,,,,,,,,,,,,,,,,,,,,,,,,,,,,,,,,,,,,,
,,,,,,,,,,,,,I’m intolerant and impatient towards those aspects of my personality I don’t like.,,59dea7f56100f9000194a162,35,,F,2020-10-22_10h40.29.330,Personality Lexical Decision,2020.2.3,Linux armv7l,60,61,,,,,,3.511950387,5.829835,0,2,2,11,1,,,,,,,,,,,,,,,,,,,,,,,,,,,,,,,,,,,,,,,,,
,,,,,,,,,,,,,When something painful happens I try to take a balanced view of the situation,,59dea7f56100f9000194a162,35,,F,2020-10-22_10h40.29.330,Personality Lexical Decision,2020.2.3,Linux armv7l,60,61,,,,,,4.973462281,4.10987,0,3,3,2,1,,,,,,,,,,,,,,,,,,,,,,,,,,,,,,,,,,,,,,,,,
,,,,,,,,,,,,,When something upsets me I try to keep my emotions in balance.,,59dea7f56100f9000194a162,35,,F,2020-10-22_10h40.29.330,Personality Lexical Decision,2020.2.3,Linux armv7l,60,61,,,,,,3.543396561,5.34131,0,4,4,6,1,,,,,,,,,,,,,,,,,,,,,,,,,,,,,,,,,,,,,,,,,
,,,,,,,,,,,,,I’m disapproving and judgmental about my own flaws and inadequacies.,,59dea7f56100f9000194a162,35,,F,2020-10-22_10h40.29.330,Personality Lexical Decision,2020.2.3,Linux armv7l,60,61,,,,,,4.567824682,6.432685,0,5,5,10,1,,,,,,,,,,,,,,,,,,,,,,,,,,,,,,,,,,,,,,,,,
,,,,,,,,,,,,,I try to be understanding and patient towards those aspects of my personality I don’t like.,,59dea7f56100f9000194a162,35,,F,2020-10-22_10h40.29.330,Personality Lexical Decision,2020.2.3,Linux armv7l,60,61,,,,,,3.979854442,4.376975,0,6,6,1,1,,,,,,,,,,,,,,,,,,,,,,,,,,,,,,,,,,,,,,,,,
,,,,,,,,,,,,,"When I fail at something that’s important to me, I tend to feel alone in my failure.",,59dea7f56100f9000194a162,35,,F,2020-10-22_10h40.29.330,Personality Lexical Decision,2020.2.3,Linux armv7l,60,61,,,,,,4.370893055,5.157005,0,7,7,7,1,,,,,,,,,,,,,,,,,,,,,,,,,,,,,,,,,,,,,,,,,
,,,,,,,,,,,,,"When I’m feeling down, I tend to feel like most other people are probably happier than I am.",,59dea7f56100f9000194a162,35,,F,2020-10-22_10h40.29.330,Personality Lexical Decision,2020.2.3,Linux armv7l,60,61,,,,,,4.992015132,7.055585,0,8,8,3,1,,,,,,,,,,,,,,,,,,,,,,,,,,,,,,,,,,,,,,,,,
,,,,,,,,,,,,,"When I’m going through a very hard time, I give myself the caring and tenderness I need.",,59dea7f56100f9000194a162,35,,F,2020-10-22_10h40.29.330,Personality Lexical Decision,2020.2.3,Linux armv7l,60,61,,,,,,3.017616131,5.98434,0,9,9,5,1,,,,,,,,,,,,,,,,,,,,,,,,,,,,,,,,,,,,,,,,,
,,,,,,,,,,,,,I try to see my failings as part of the human condition.,,59dea7f56100f9000194a162,35,,F,2020-10-22_10h40.29.330,Personality Lexical Decision,2020.2.3,Linux armv7l,60,61,,,,,,4.022665942,3.70628,0,10,10,4,1,,,,,,,,,,,,,,,,,,,,,,,,,,,,,,,,,,,,,,,,,
,,,,,,,,,,,,,When I’m feeling down I tend to obsess and fixate on everything that’s wrong.,,59dea7f56100f9000194a162,35,,F,2020-10-22_10h40.29.330,Personality Lexical Decision,2020.2.3,Linux armv7l,60,61,,,,,,1.95236863,10.478785,0,11,11,8,1,,,,,,,,,,,,,,,,,,,,,,,,,,,,,,,,,,,,,,,,,
,,,,,,,,,,,,,You rip an article out of a journal in the library and take it with you. Your teacher discovers what you did and tells the librarian and your entire class. What is the likelihood that this would make you would feel like a bad person?,,59dea7f56100f9000194a162,35,,F,2020-10-22_10h40.29.330,Personality Lexical Decision,2020.2.3,Linux armv7l,60,61,,,,,,,,,,,,,space,14.900655,6.985347062,12.880045,0,0,0,2,1,NSE,SHAME,,,,,,,,,,,,,,,,,,,,,,,,,,,,,,
,,,,,,,,,,,,,"At a coworker’s housewarming party, you spill red wine on their new cream‐ colored carpet. You cover the stain with a chair so that nobody notices your mess. What is the likelihood that you would feel that the way you acted was pathetic?",,59dea7f56100f9000194a162,35,,F,2020-10-22_10h40.29.330,Personality Lexical Decision,2020.2.3,Linux armv7l,60,61,,,,,,,,,,,,,,,5.015366614,14.07657,0,1,1,13,1,NBE,GUILT,,,,,,,,,,,,,,,,,,,,,,,,,,,,,,
,,,,,,,,,,,,,You secretly commit a felony. What is the likelihood that you would feel remorse about breaking the law?,,59dea7f56100f9000194a162,35,,F,2020-10-22_10h40.29.330,Personality Lexical Decision,2020.2.3,Linux armv7l,60,61,,,,,,,,,,,,,,,6.010740712,7.38044,0,2,2,8,1,NBE,GUILT,,,,,,,,,,,,,,,,,,,,,,,,,,,,,,
,,,,,,,,,,,,,"You strongly defend a point of view in a discussion, and though nobody was aware of it, you realize that you were wrong. What is the likelihood that this would make you think more carefully before you speak?",,59dea7f56100f9000194a162,35,,F,2020-10-22_10h40.29.330,Personality Lexical Decision,2020.2.3,Linux armv7l,60,61,,,,,,,,,,,,,,,6.984893322,11.723295,0,3,3,10,1,GR,GUILT,,,,,,,,,,,,,,,,,,,,,,,,,,,,,,
,,,,,,,,,,,,,A friend tells you that you boast a great deal. What is the likelihood that you would stop spending time with that friend?,,59dea7f56100f9000194a162,35,,F,2020-10-22_10h40.29.330,Personality Lexical Decision,2020.2.3,Linux armv7l,60,61,,,,,,,,,,,,,,,5.484641433,13.09726,0,4,4,6,1,SW,SHAME,,,,,,,,,,,,,,,,,,,,,,,,,,,,,,
,,,,,,,,,,,,,You give a bad presentation at work. Afterwards your boss tells your coworkers it was your fault that your company lost the contract. What is the likelihood that you would feel incompetent?,,59dea7f56100f9000194a162,35,,F,2020-10-22_10h40.29.330,Personality Lexical Decision,2020.2.3,Linux armv7l,60,61,,,,,,,,,,,,,,,6.984531969,8.877835,0,5,5,5,1,NSE,SHAME,,,,,,,,,,,,,,,,,,,,,,,,,,,,,,
,,,,,,,,,,,,,"While discussing a heated subject with friends, you suddenly realize you are shouting though nobody seems to notice. What is the likelihood that you would try to act more considerately toward your friends?",,59dea7f56100f9000194a162,35,,F,2020-10-22_10h40.29.330,Personality Lexical Decision,2020.2.3,Linux armv7l,60,61,,,,,,,,,,,,,,,6.968572825,8.947875,0,6,6,14,1,GR,GUILT,,,,,,,,,,,,,,,,,,,,,,,,,,,,,,
,,,,,,,,,,,,,"After making a big mistake on an important project at work in which people were depending on you, your boss criticizes you in front of your coworkers. What is the likelihood that you would feign sickness and leave work?",,59dea7f56100f9000194a162,35,,F,2020-10-22_10h40.29.330,Personality Lexical Decision,2020.2.3,Linux armv7l,60,61,,,,,,,,,,,,,,,6.022633702,9.631475,0,7,7,3,1,SW,SHAME,,,,,,,,,,,,,,,,,,,,,,,,,,,,,,
,,,,,,,,,,,,,You take office supplies home for personal use and are caught by your boss. What is the likelihood that this would lead you to quit your job?,,59dea7f56100f9000194a162,35,,F,2020-10-22_10h40.29.330,Personality Lexical Decision,2020.2.3,Linux armv7l,60,61,,,,,,,,,,,,,,,1.997851856,8.044,0,8,8,11,1,SW,SHAME,,,,,,,,,,,,,,,,,,,,,,,,,,,,,,
,,,,,,,,,,,,,"After realizing you have received too much change at a store, you decide to keep it because the salesclerk doesn't notice. What is the likelihood that you would feel uncomfortable about keeping the money?",,59dea7f56100f9000194a162,35,,F,2020-10-22_10h40.29.330,Personality Lexical Decision,2020.2.3,Linux armv7l,60,61,,,,,,,,,,,,,,,1.961518541,7.795265,0,9,9,0,1,NBE,GUILT,,,,,,,,,,,,,,,,,,,,,,,,,,,,,,
,,,,,,,,,,,,,Your home is very messy and unexpected guests knock on your door and invite themselves in. What is the likelihood that you would avoid the guests until they leave? ,,59dea7f56100f9000194a162,35,,F,2020-10-22_10h40.29.330,Personality Lexical Decision,2020.2.3,Linux armv7l,60,61,,,,,,,,,,,,,,,1.021534573,11.13688,0,10,10,7,1,SW,SHAME,,,,,,,,,,,,,,,,,,,,,,,,,,,,,,
,,,,,,,,,,,,,"You successfully exaggerate your damages in a lawsuit. Months later, your lies are discovered and you are charged with perjury. What is the likelihood that you would think you are a despicable human being?",,59dea7f56100f9000194a162,35,,F,2020-10-22_10h40.29.330,Personality Lexical Decision,2020.2.3,Linux armv7l,60,61,,,,,,,,,,,,,,,6.513811737,10.551165,0,11,11,9,1,NSE,SHAME,,,,,,,,,,,,,,,,,,,,,,,,,,,,,,
,,,,,,,,,,,,,"You make a mistake at work and find out a coworker is blamed for the error. Later, your coworker confronts you about your mistake. What is the likelihood that you would feel like a coward? ",,59dea7f56100f9000194a162,35,,F,2020-10-22_10h40.29.330,Personality Lexical Decision,2020.2.3,Linux armv7l,60,61,,,,,,,,,,,,,,,6.858419716,10.27603,0,12,12,12,1,NSE,SHAME,,,,,,,,,,,,,,,,,,,,,,,,,,,,,,
,,,,,,,,,,,,,You are privately informed that you are the only one in your group that did not make the honor society because you skipped too many days of school. What is the likelihood that this would lead you to become more responsible about attending school?,,59dea7f56100f9000194a162,35,,F,2020-10-22_10h40.29.330,Personality Lexical Decision,2020.2.3,Linux armv7l,60,61,,,,,,,,,,,,,,,5.387700438,10.211345,0,13,13,1,1,GR,GUILT,,,,,,,,,,,,,,,,,,,,,,,,,,,,,,
,,,,,,,,,,,,,"You reveal a friend’s secret, though your friend never finds out. What is the likelihood that your failure to keep the secret would lead you to exert extra effort to keep secrets in the future?",,59dea7f56100f9000194a162,35,,F,2020-10-22_10h40.29.330,Personality Lexical Decision,2020.2.3,Linux armv7l,60,61,,,,,,,,,,,,,,,6.954017371,9.825415,0,14,14,4,1,GR,GUILT,,,,,,,,,,,,,,,,,,,,,,,,,,,,,,
,,,,,,,,,,,,,You lie to people but they never find out about it. What is the likelihood that you would feel terrible about the lies you told?,,59dea7f56100f9000194a162,35,,F,2020-10-22_10h40.29.330,Personality Lexical Decision,2020.2.3,Linux armv7l,60,61,,,,,,,,,,,,,,,4.044885278,13.4863,0,15,15,15,1,NBE,GUILT,,,,,,,,,,,,,,,,,,,,,,,,,,,,,,
,,,,,,,,,,,,,,,59dea7f56100f9000194a162,35,,F,2020-10-22_10h40.29.330,Personality Lexical Decision,2020.2.3,Linux armv7l,60,61,,,,,,,,,,,,,,,,,,,,,,,,space,23.71114,space,19.25323,q,1,1.250075,0,0,0,8,1,SNAD,q,,,,,,,,,,,,,,,,
,,,,,,,,,,,,,,,59dea7f56100f9000194a162,35,,F,2020-10-22_10h40.29.330,Personality Lexical Decision,2020.2.3,Linux armv7l,60,61,,,,,,,,,,,,,,,,,,,,,,,,,,,,p,1,0.717385,0,1,1,6,1,WHEAT,p,,,,,,,,,,,,,,,,
,,,,,,,,,,,,,,,59dea7f56100f9000194a162,35,,F,2020-10-22_10h40.29.330,Personality Lexical Decision,2020.2.3,Linux armv7l,60,61,,,,,,,,,,,,,,,,,,,,,,,,,,,,p,1,0.752325,0,2,2,0,1,SAND,p,,,,,,,,,,,,,,,,
,,,,,,,,,,,,,,,59dea7f56100f9000194a162,35,,F,2020-10-22_10h40.29.330,Personality Lexical Decision,2020.2.3,Linux armv7l,60,61,,,,,,,,,,,,,,,,,,,,,,,,,,,,p,1,0.618625,0,3,3,7,1,GLASS,p,,,,,,,,,,,,,,,,
,,,,,,,,,,,,,,,59dea7f56100f9000194a162,35,,F,2020-10-22_10h40.29.330,Personality Lexical Decision,2020.2.3,Linux armv7l,60,61,,,,,,,,,,,,,,,,,,,,,,,,,,,,q,1,0.66998,0,4,4,13,1,BOTOS,q,,,,,,,,,,,,,,,,
,,,,,,,,,,,,,,,59dea7f56100f9000194a162,35,,F,2020-10-22_10h40.29.330,Personality Lexical Decision,2020.2.3,Linux armv7l,60,61,,,,,,,,,,,,,,,,,,,,,,,,,,,,p,1,0.735235,0,5,5,3,1,TABLE,p,,,,,,,,,,,,,,,,
,,,,,,,,,,,,,,,59dea7f56100f9000194a162,35,,F,2020-10-22_10h40.29.330,Personality Lexical Decision,2020.2.3,Linux armv7l,60,61,,,,,,,,,,,,,,,,,,,,,,,,,,,,p,1,0.645015,0,6,6,2,1,PAPER,p,,,,,,,,,,,,,,,,
,,,,,,,,,,,,,,,59dea7f56100f9000194a162,35,,F,2020-10-22_10h40.29.330,Personality Lexical Decision,2020.2.3,Linux armv7l,60,61,,,,,,,,,,,,,,,,,,,,,,,,,,,,q,1,0.82529,0,7,7,9,1,NOHTING,q,,,,,,,,,,,,,,,,
,,,,,,,,,,,,,,,59dea7f56100f9000194a162,35,,F,2020-10-22_10h40.29.330,Personality Lexical Decision,2020.2.3,Linux armv7l,60,61,,,,,,,,,,,,,,,,,,,,,,,,,,,,q,1,0.846375,0,8,8,10,1,PEPAR,q,,,,,,,,,,,,,,,,
,,,,,,,,,,,,,,,59dea7f56100f9000194a162,35,,F,2020-10-22_10h40.29.330,Personality Lexical Decision,2020.2.3,Linux armv7l,60,61,,,,,,,,,,,,,,,,,,,,,,,,,,,,q,1,0.99517,0,9,9,14,1,WEHAT,q,,,,,,,,,,,,,,,,
,,,,,,,,,,,,,,,59dea7f56100f9000194a162,35,,F,2020-10-22_10h40.29.330,Personality Lexical Decision,2020.2.3,Linux armv7l,60,61,,,,,,,,,,,,,,,,,,,,,,,,,,,,q,1,0.706835,0,10,10,12,1,KYEBAORD,q,,,,,,,,,,,,,,,,
,,,,,,,,,,,,,,,59dea7f56100f9000194a162,35,,F,2020-10-22_10h40.29.330,Personality Lexical Decision,2020.2.3,Linux armv7l,60,61,,,,,,,,,,,,,,,,,,,,,,,,,,,,p,1,0.8034,0,11,11,4,1,KEYBOARD,p,,,,,,,,,,,,,,,,
,,,,,,,,,,,,,,,59dea7f56100f9000194a162,35,,F,2020-10-22_10h40.29.330,Personality Lexical Decision,2020.2.3,Linux armv7l,60,61,,,,,,,,,,,,,,,,,,,,,,,,,,,,q,1,0.68537,0,12,12,15,1,GSALS,q,,,,,,,,,,,,,,,,
,,,,,,,,,,,,,,,59dea7f56100f9000194a162,35,,F,2020-10-22_10h40.29.330,Personality Lexical Decision,2020.2.3,Linux armv7l,60,61,,,,,,,,,,,,,,,,,,,,,,,,,,,,p,1,0.628205,0,13,13,5,1,BOOTS,p,,,,,,,,,,,,,,,,
,,,,,,,,,,,,,,,59dea7f56100f9000194a162,35,,F,2020-10-22_10h40.29.330,Personality Lexical Decision,2020.2.3,Linux armv7l,60,61,,,,,,,,,,,,,,,,,,,,,,,,,,,,p,1,0.706415,0,14,14,1,1,NOTHING,p,,,,,,,,,,,,,,,,
,,,,,,,,,,,,,,,59dea7f56100f9000194a162,35,,F,2020-10-22_10h40.29.330,Personality Lexical Decision,2020.2.3,Linux armv7l,60,61,,,,,,,,,,,,,,,,,,,,,,,,,,,,q,1,0.809195,0,15,15,11,1,TBALE,q,,,,,,,,,,,,,,,,
,,,,,,,,,,,,,,,59dea7f56100f9000194a162,35,,F,2020-10-22_10h40.29.330,Personality Lexical Decision,2020.2.3,Linux armv7l,60,61,,,,,,,,,,,,,,,,,,,,,,,,,,,,,,,,,,,,,p,space,12.619175,p,1,0.4985,0,0,0,30,1,EACH,neutre,,,,
,,,,,,,,,,,,,,,59dea7f56100f9000194a162,35,,F,2020-10-22_10h40.29.330,Personality Lexical Decision,2020.2.3,Linux armv7l,60,61,,,,,,,,,,,,,,,,,,,,,,,,,,,,,,,,,,,,,p,,,p,1,0.567085,0,1,1,35,1,POCKET,neutre,,,,
,,,,,,,,,,,,,,,59dea7f56100f9000194a162,35,,F,2020-10-22_10h40.29.330,Personality Lexical Decision,2020.2.3,Linux armv7l,60,61,,,,,,,,,,,,,,,,,,,,,,,,,,,,,,,,,,,,,p,,,p,1,0.58975,0,2,2,0,1,ACHIEVE,reussite,,,,
,,,,,,,,,,,,,,,59dea7f56100f9000194a162,35,,F,2020-10-22_10h40.29.330,Personality Lexical Decision,2020.2.3,Linux armv7l,60,61,,,,,,,,,,,,,,,,,,,,,,,,,,,,,,,,,,,,,p,,,p,1,0.52973,0,3,3,1,1,SUCCESS,reussite,,,,
,,,,,,,,,,,,,,,59dea7f56100f9000194a162,35,,F,2020-10-22_10h40.29.330,Personality Lexical Decision,2020.2.3,Linux armv7l,60,61,,,,,,,,,,,,,,,,,,,,,,,,,,,,,,,,,,,,,p,,,p,1,0.534605,0,4,4,24,1,TRAVEL,escape,,,,
,,,,,,,,,,,,,,,59dea7f56100f9000194a162,35,,F,2020-10-22_10h40.29.330,Personality Lexical Decision,2020.2.3,Linux armv7l,60,61,,,,,,,,,,,,,,,,,,,,,,,,,,,,,,,,,,,,,p,,,p,1,0.87128,0,5,5,10,1,DISAPPOINTMENT,echec,,,,
,,,,,,,,,,,,,,,59dea7f56100f9000194a162,35,,F,2020-10-22_10h40.29.330,Personality Lexical Decision,2020.2.3,Linux armv7l,60,61,,,,,,,,,,,,,,,,,,,,,,,,,,,,,,,,,,,,,q,,,q,1,0.70753,0,6,6,47,1,WNID,non,,,,
,,,,,,,,,,,,,,,59dea7f56100f9000194a162,35,,F,2020-10-22_10h40.29.330,Personality Lexical Decision,2020.2.3,Linux armv7l,60,61,,,,,,,,,,,,,,,,,,,,,,,,,,,,,,,,,,,,,q,,,q,1,1.11106,0,7,7,9,1,TIRUMPH,non,,,,
,,,,,,,,,,,,,,,59dea7f56100f9000194a162,35,,F,2020-10-22_10h40.29.330,Personality Lexical Decision,2020.2.3,Linux armv7l,60,61,,,,,,,,,,,,,,,,,,,,,,,,,,,,,,,,,,,,,q,,,q,1,0.689825,0,8,8,53,1,FTILRE,non,,,,
,,,,,,,,,,,,,,,59dea7f56100f9000194a162,35,,F,2020-10-22_10h40.29.330,Personality Lexical Decision,2020.2.3,Linux armv7l,60,61,,,,,,,,,,,,,,,,,,,,,,,,,,,,,,,,,,,,,q,,,q,1,0.63277,0,9,9,17,1,LOSOE,non,,,,
,,,,,,,,,,,,,,,59dea7f56100f9000194a162,35,,F,2020-10-22_10h40.29.330,Personality Lexical Decision,2020.2.3,Linux armv7l,60,61,,,,,,,,,,,,,,,,,,,,,,,,,,,,,,,,,,,,,q,,,q,1,0.545015,0,10,10,58,1,CHIAR,non,,,,
,,,,,,,,,,,,,,,59dea7f56100f9000194a162,35,,F,2020-10-22_10h40.29.330,Personality Lexical Decision,2020.2.3,Linux armv7l,60,61,,,,,,,,,,,,,,,,,,,,,,,,,,,,,,,,,,,,,q,,,q,1,0.712545,0,11,11,57,1,PELI,non,,,,
,,,,,,,,,,,,,,,59dea7f56100f9000194a162,35,,F,2020-10-22_10h40.29.330,Personality Lexical Decision,2020.2.3,Linux armv7l,60,61,,,,,,,,,,,,,,,,,,,,,,,,,,,,,,,,,,,,,p,,,p,1,0.657595,0,12,12,43,1,CHAIR,neutre,,,,
,,,,,,,,,,,,,,,59dea7f56100f9000194a162,35,,F,2020-10-22_10h40.29.330,Personality Lexical Decision,2020.2.3,Linux armv7l,60,61,,,,,,,,,,,,,,,,,,,,,,,,,,,,,,,,,,,,,p,,,p,1,0.54276,0,13,13,37,1,THE,neutre,,,,
,,,,,,,,,,,,,,,59dea7f56100f9000194a162,35,,F,2020-10-22_10h40.29.330,Personality Lexical Decision,2020.2.3,Linux armv7l,60,61,,,,,,,,,,,,,,,,,,,,,,,,,,,,,,,,,,,,,p,,,p,1,0.741725,0,14,14,23,1,DEPART,escape,,,,
,,,,,,,,,,,,,,,59dea7f56100f9000194a162,35,,F,2020-10-22_10h40.29.330,Personality Lexical Decision,2020.2.3,Linux armv7l,60,61,,,,,,,,,,,,,,,,,,,,,,,,,,,,,,,,,,,,,q,,,q,1,0.742345,0,15,15,46,1,EVNINGE,non,,,,
,,,,,,,,,,,,,,,59dea7f56100f9000194a162,35,,F,2020-10-22_10h40.29.330,Personality Lexical Decision,2020.2.3,Linux armv7l,60,61,,,,,,,,,,,,,,,,,,,,,,,,,,,,,,,,,,,,,q,,,q,1,0.93752,0,16,16,51,1,OFOT,non,,,,
,,,,,,,,,,,,,,,59dea7f56100f9000194a162,35,,F,2020-10-22_10h40.29.330,Personality Lexical Decision,2020.2.3,Linux armv7l,60,61,,,,,,,,,,,,,,,,,,,,,,,,,,,,,,,,,,,,,q,,,q,1,0.74302,0,17,17,50,1,POKCET,non,,,,
,,,,,,,,,,,,,,,59dea7f56100f9000194a162,35,,F,2020-10-22_10h40.29.330,Personality Lexical Decision,2020.2.3,Linux armv7l,60,61,,,,,,,,,,,,,,,,,,,,,,,,,,,,,,,,,,,,,q,,,q,1,0.55692,0,18,18,8,1,WNI,non,,,,
,,,,,,,,,,,,,,,59dea7f56100f9000194a162,35,,F,2020-10-22_10h40.29.330,Personality Lexical Decision,2020.2.3,Linux armv7l,60,61,,,,,,,,,,,,,,,,,,,,,,,,,,,,,,,,,,,,,q,,,q,1,0.62085,0,19,19,27,1,FELE,non,,,,
,,,,,,,,,,,,,,,59dea7f56100f9000194a162,35,,F,2020-10-22_10h40.29.330,Personality Lexical Decision,2020.2.3,Linux armv7l,60,61,,,,,,,,,,,,,,,,,,,,,,,,,,,,,,,,,,,,,p,,,p,1,0.81808,0,20,20,32,1,WIND,neutre,,,,
,,,,,,,,,,,,,,,59dea7f56100f9000194a162,35,,F,2020-10-22_10h40.29.330,Personality Lexical Decision,2020.2.3,Linux armv7l,60,61,,,,,,,,,,,,,,,,,,,,,,,,,,,,,,,,,,,,,q,,,q,1,0.68,0,21,21,26,1,EVISAON,non,,,,
,,,,,,,,,,,,,,,59dea7f56100f9000194a162,35,,F,2020-10-22_10h40.29.330,Personality Lexical Decision,2020.2.3,Linux armv7l,60,61,,,,,,,,,,,,,,,,,,,,,,,,,,,,,,,,,,,,,q,,,q,1,0.653345,0,22,22,45,1,AECH,non,,,,
,,,,,,,,,,,,,,,59dea7f56100f9000194a162,35,,F,2020-10-22_10h40.29.330,Personality Lexical Decision,2020.2.3,Linux armv7l,60,61,,,,,,,,,,,,,,,,,,,,,,,,,,,,,,,,,,,,,q,,,q,1,0.963905,0,23,23,15,1,DASIPOINTMENT,non,,,,
,,,,,,,,,,,,,,,59dea7f56100f9000194a162,35,,F,2020-10-22_10h40.29.330,Personality Lexical Decision,2020.2.3,Linux armv7l,60,61,,,,,,,,,,,,,,,,,,,,,,,,,,,,,,,,,,,,,p,,,p,1,0.839,0,24,24,44,1,OFTEN,neutre,,,,
,,,,,,,,,,,,,,,59dea7f56100f9000194a162,35,,F,2020-10-22_10h40.29.330,Personality Lexical Decision,2020.2.3,Linux armv7l,60,61,,,,,,,,,,,,,,,,,,,,,,,,,,,,,,,,,,,,,p,,,p,1,0.688975,0,25,25,20,1,ESCAPE,escape,,,,
,,,,,,,,,,,,,,,59dea7f56100f9000194a162,35,,F,2020-10-22_10h40.29.330,Personality Lexical Decision,2020.2.3,Linux armv7l,60,61,,,,,,,,,,,,,,,,,,,,,,,,,,,,,,,,,,,,,p,,,p,1,0.653205,0,26,26,40,1,IT,neutre,,,,
,,,,,,,,,,,,,,,59dea7f56100f9000194a162,35,,F,2020-10-22_10h40.29.330,Personality Lexical Decision,2020.2.3,Linux armv7l,60,61,,,,,,,,,,,,,,,,,,,,,,,,,,,,,,,,,,,,,q,,,q,1,2.776215,0,27,27,25,1,ECSAPE,non,,,,
,,,,,,,,,,,,,,,59dea7f56100f9000194a162,35,,F,2020-10-22_10h40.29.330,Personality Lexical Decision,2020.2.3,Linux armv7l,60,61,,,,,,,,,,,,,,,,,,,,,,,,,,,,,,,,,,,,,p,,,p,1,0.72358,0,28,28,31,1,EVENING,neutre,,,,
,,,,,,,,,,,,,,,59dea7f56100f9000194a162,35,,F,2020-10-22_10h40.29.330,Personality Lexical Decision,2020.2.3,Linux armv7l,60,61,,,,,,,,,,,,,,,,,,,,,,,,,,,,,,,,,,,,,q,,,q,1,0.807815,0,29,29,52,1,TEH,non,,,,
,,,,,,,,,,,,,,,59dea7f56100f9000194a162,35,,F,2020-10-22_10h40.29.330,Personality Lexical Decision,2020.2.3,Linux armv7l,60,61,,,,,,,,,,,,,,,,,,,,,,,,,,,,,,,,,,,,,p,,,p,1,0.86757,0,30,30,11,1,FAIL,echec,,,,
,,,,,,,,,,,,,,,59dea7f56100f9000194a162,35,,F,2020-10-22_10h40.29.330,Personality Lexical Decision,2020.2.3,Linux armv7l,60,61,,,,,,,,,,,,,,,,,,,,,,,,,,,,,,,,,,,,,p,,,q,0,1.153045,0,31,31,5,1,ACIHEVE,non,,,,
,,,,,,,,,,,,,,,59dea7f56100f9000194a162,35,,F,2020-10-22_10h40.29.330,Personality Lexical Decision,2020.2.3,Linux armv7l,60,61,,,,,,,,,,,,,,,,,,,,,,,,,,,,,,,,,,,,,q,,,q,1,0.7891,0,32,32,29,1,TRAVLE,non,,,,
,,,,,,,,,,,,,,,59dea7f56100f9000194a162,35,,F,2020-10-22_10h40.29.330,Personality Lexical Decision,2020.2.3,Linux armv7l,60,61,,,,,,,,,,,,,,,,,,,,,,,,,,,,,,,,,,,,,q,,,q,1,0.660495,0,33,33,56,1,BWOL,non,,,,
,,,,,,,,,,,,,,,59dea7f56100f9000194a162,35,,F,2020-10-22_10h40.29.330,Personality Lexical Decision,2020.2.3,Linux armv7l,60,61,,,,,,,,,,,,,,,,,,,,,,,,,,,,,,,,,,,,,p,,,p,1,1.041495,0,34,34,4,1,TRIUMPH,reussite,,,,
,,,,,,,,,,,,,,,59dea7f56100f9000194a162,35,,F,2020-10-22_10h40.29.330,Personality Lexical Decision,2020.2.3,Linux armv7l,60,61,,,,,,,,,,,,,,,,,,,,,,,,,,,,,,,,,,,,,q,,,q,1,1.029715,0,35,35,59,1,OTFEN,non,,,,
,,,,,,,,,,,,,,,59dea7f56100f9000194a162,35,,F,2020-10-22_10h40.29.330,Personality Lexical Decision,2020.2.3,Linux armv7l,60,61,,,,,,,,,,,,,,,,,,,,,,,,,,,,,,,,,,,,,p,,,p,1,0.58554,0,36,36,41,1,BOWL,neutre,,,,
,,,,,,,,,,,,,,,59dea7f56100f9000194a162,35,,F,2020-10-22_10h40.29.330,Personality Lexical Decision,2020.2.3,Linux armv7l,60,61,,,,,,,,,,,,,,,,,,,,,,,,,,,,,,,,,,,,,p,,,p,1,0.792005,0,37,37,14,1,FAILURE,echec,,,,
,,,,,,,,,,,,,,,59dea7f56100f9000194a162,35,,F,2020-10-22_10h40.29.330,Personality Lexical Decision,2020.2.3,Linux armv7l,60,61,,,,,,,,,,,,,,,,,,,,,,,,,,,,,,,,,,,,,p,,,p,1,0.938305,0,38,38,38,1,FILTER,neutre,,,,
,,,,,,,,,,,,,,,59dea7f56100f9000194a162,35,,F,2020-10-22_10h40.29.330,Personality Lexical Decision,2020.2.3,Linux armv7l,60,61,,,,,,,,,,,,,,,,,,,,,,,,,,,,,,,,,,,,,q,,,q,1,0.7278,0,39,39,48,1,HDEGE,non,,,,
,,,,,,,,,,,,,,,59dea7f56100f9000194a162,35,,F,2020-10-22_10h40.29.330,Personality Lexical Decision,2020.2.3,Linux armv7l,60,61,,,,,,,,,,,,,,,,,,,,,,,,,,,,,,,,,,,,,q,,,q,1,0.81921,0,40,40,18,1,DEFAET,non,,,,
,,,,,,,,,,,,,,,59dea7f56100f9000194a162,35,,F,2020-10-22_10h40.29.330,Personality Lexical Decision,2020.2.3,Linux armv7l,60,61,,,,,,,,,,,,,,,,,,,,,,,,,,,,,,,,,,,,,p,,,p,1,0.67028,0,41,41,3,1,WIN,reussite,,,,
,,,,,,,,,,,,,,,59dea7f56100f9000194a162,35,,F,2020-10-22_10h40.29.330,Personality Lexical Decision,2020.2.3,Linux armv7l,60,61,,,,,,,,,,,,,,,,,,,,,,,,,,,,,,,,,,,,,q,,,q,1,1.11845,0,42,42,7,1,VOTCIIRE,non,,,,
,,,,,,,,,,,,,,,59dea7f56100f9000194a162,35,,F,2020-10-22_10h40.29.330,Personality Lexical Decision,2020.2.3,Linux armv7l,60,61,,,,,,,,,,,,,,,,,,,,,,,,,,,,,,,,,,,,,p,,,p,1,0.658325,0,43,43,39,1,STEP,neutre,,,,
,,,,,,,,,,,,,,,59dea7f56100f9000194a162,35,,F,2020-10-22_10h40.29.330,Personality Lexical Decision,2020.2.3,Linux armv7l,60,61,,,,,,,,,,,,,,,,,,,,,,,,,,,,,,,,,,,,,q,,,q,1,0.786155,0,44,44,28,1,DAPERT,non,,,,
,,,,,,,,,,,,,,,59dea7f56100f9000194a162,35,,F,2020-10-22_10h40.29.330,Personality Lexical Decision,2020.2.3,Linux armv7l,60,61,,,,,,,,,,,,,,,,,,,,,,,,,,,,,,,,,,,,,p,,,p,1,1.54667,0,45,45,21,1,EVASION,escape,,,,
,,,,,,,,,,,,,,,59dea7f56100f9000194a162,35,,F,2020-10-22_10h40.29.330,Personality Lexical Decision,2020.2.3,Linux armv7l,60,61,,,,,,,,,,,,,,,,,,,,,,,,,,,,,,,,,,,,,q,,,q,1,0.737395,0,46,46,19,1,FULAIRE,non,,,,
,,,,,,,,,,,,,,,59dea7f56100f9000194a162,35,,F,2020-10-22_10h40.29.330,Personality Lexical Decision,2020.2.3,Linux armv7l,60,61,,,,,,,,,,,,,,,,,,,,,,,,,,,,,,,,,,,,,p,,,p,1,0.88812,0,47,47,22,1,FLEE,escape,,,,
,,,,,,,,,,,,,,,59dea7f56100f9000194a162,35,,F,2020-10-22_10h40.29.330,Personality Lexical Decision,2020.2.3,Linux armv7l,60,61,,,,,,,,,,,,,,,,,,,,,,,,,,,,,,,,,,,,,p,,,p,1,1.043505,0,48,48,33,1,HEDGE,neutre,,,,
,,,,,,,,,,,,,,,59dea7f56100f9000194a162,35,,F,2020-10-22_10h40.29.330,Personality Lexical Decision,2020.2.3,Linux armv7l,60,61,,,,,,,,,,,,,,,,,,,,,,,,,,,,,,,,,,,,,p,,,p,1,0.74116,0,49,49,13,1,DEFEAT,echec,,,,
,,,,,,,,,,,,,,,59dea7f56100f9000194a162,35,,F,2020-10-22_10h40.29.330,Personality Lexical Decision,2020.2.3,Linux armv7l,60,61,,,,,,,,,,,,,,,,,,,,,,,,,,,,,,,,,,,,,p,,,p,1,0.691765,0,50,50,2,1,VICTORY,reussite,,,,
,,,,,,,,,,,,,,,59dea7f56100f9000194a162,35,,F,2020-10-22_10h40.29.330,Personality Lexical Decision,2020.2.3,Linux armv7l,60,61,,,,,,,,,,,,,,,,,,,,,,,,,,,,,,,,,,,,,q,,,p,0,1.23791,0,51,51,16,1,FLAIL,non,,,,
,,,,,,,,,,,,,,,59dea7f56100f9000194a162,35,,F,2020-10-22_10h40.29.330,Personality Lexical Decision,2020.2.3,Linux armv7l,60,61,,,,,,,,,,,,,,,,,,,,,,,,,,,,,,,,,,,,,p,,,p,1,0.779795,0,52,52,42,1,PILE,neutre,,,,
,,,,,,,,,,,,,,,59dea7f56100f9000194a162,35,,F,2020-10-22_10h40.29.330,Personality Lexical Decision,2020.2.3,Linux armv7l,60,61,,,,,,,,,,,,,,,,,,,,,,,,,,,,,,,,,,,,,q,,,q,1,0.85075,0,53,53,6,1,SCECUS,non,,,,
,,,,,,,,,,,,,,,59dea7f56100f9000194a162,35,,F,2020-10-22_10h40.29.330,Personality Lexical Decision,2020.2.3,Linux armv7l,60,61,,,,,,,,,,,,,,,,,,,,,,,,,,,,,,,,,,,,,p,,,p,1,0.70346,0,54,54,36,1,FOOT,neutre,,,,
,,,,,,,,,,,,,,,59dea7f56100f9000194a162,35,,F,2020-10-22_10h40.29.330,Personality Lexical Decision,2020.2.3,Linux armv7l,60,61,,,,,,,,,,,,,,,,,,,,,,,,,,,,,,,,,,,,,p,,,p,1,0.675255,0,55,55,34,1,TRAIN,neutre,,,,
,,,,,,,,,,,,,,,59dea7f56100f9000194a162,35,,F,2020-10-22_10h40.29.330,Personality Lexical Decision,2020.2.3,Linux armv7l,60,61,,,,,,,,,,,,,,,,,,,,,,,,,,,,,,,,,,,,,p,,,p,1,0.953485,0,56,56,12,1,LOOSE,echec,,,,
,,,,,,,,,,,,,,,59dea7f56100f9000194a162,35,,F,2020-10-22_10h40.29.330,Personality Lexical Decision,2020.2.3,Linux armv7l,60,61,,,,,,,,,,,,,,,,,,,,,,,,,,,,,,,,,,,,,q,,,q,1,0.784925,0,57,57,49,1,TAIRN,non,,,,
,,,,,,,,,,,,,,,59dea7f56100f9000194a162,35,,F,2020-10-22_10h40.29.330,Personality Lexical Decision,2020.2.3,Linux armv7l,60,61,,,,,,,,,,,,,,,,,,,,,,,,,,,,,,,,,,,,,q,,,q,1,0.978445,0,58,58,55,1,TI,non,,,,
,,,,,,,,,,,,,,,59dea7f56100f9000194a162,35,,F,2020-10-22_10h40.29.330,Personality Lexical Decision,2020.2.3,Linux armv7l,60,61,,,,,,,,,,,,,,,,,,,,,,,,,,,,,,,,,,,,,q,,,q,1,0.733315,0,59,59,54,1,SETP,non,,,,
,,,,,,,,,,,,,,,59dea7f56100f9000194a162,35,,F,2020-10-22_10h40.29.330,Personality Lexical Decision,2020.2.3,Linux armv7l,60,61,,,,,,,,,,,,,,,,,,,,,,,,,,,,,,,,,,,,,,,,,,,,,,,,,,y,6.291695,space,21.02119
